TITLE	
DATA TYPE	
ORIGIN	JASCO
OWNER	
DATE	23/05/04
TIME	17:08:54
SPECTROMETER/DATA SYSTEM	JASCO Corp., V-550, Rev. 1.00
RESOLUTION	
DELTAX	-1
XUNITS	NANOMETERS
YUNITS	ABSORBANCE
FIRSTX	700.0000
LASTX	300.0000
NPOINTS	401
FIRSTY	-0.00962
MAXY	0.04299
MINY	-0.03537
XYDATA
700.0000	-0.00962
699.0000	-0.01075
698.0000	-0.0108
697.0000	-0.0108
696.0000	-0.01083
695.0000	-0.01067
694.0000	-0.01035
693.0000	-0.00992
692.0000	-0.00939
691.0000	-0.00882
690.0000	-0.00835
689.0000	-0.00789
688.0000	-0.00758
687.0000	-0.00738
686.0000	-0.00738
685.0000	-0.0074
684.0000	-0.00758
683.0000	-0.0076
682.0000	-0.00782
681.0000	-0.00775
680.0000	-0.00852
679.0000	-0.00975
678.0000	-0.00972
677.0000	-0.0095
676.0000	-0.00941
675.0000	-0.00938
674.0000	-0.00932
673.0000	-0.00929
672.0000	-0.00917
671.0000	-0.0092
670.0000	-0.00895
669.0000	-0.0089
668.0000	-0.00882
667.0000	-0.00883
666.0000	-0.00889
665.0000	-0.00871
664.0000	-0.00861
663.0000	-0.00857
662.0000	-0.00844
661.0000	-0.0083
660.0000	-0.00815
659.0000	-0.00811
658.0000	-0.00802
657.0000	-0.00779
656.0000	-0.00761
655.0000	-0.00748
654.0000	-0.00724
653.0000	-0.00708
652.0000	-0.00688
651.0000	-0.00658
650.0000	-0.00629
649.0000	-0.00609
648.0000	-0.00589
647.0000	-0.00557
646.0000	-0.00534
645.0000	-0.00502
644.0000	-0.00463
643.0000	-0.00433
642.0000	-0.00405
641.0000	-0.00381
640.0000	-0.00345
639.0000	-0.00306
638.0000	-0.00267
637.0000	-0.0024
636.0000	-0.00206
635.0000	-0.0016
634.0000	-0.00123
633.0000	-0.00082
632.0000	-0.00042
631.0000	7E-005
630.0000	0.00046
629.0000	0.00098
628.0000	0.0014
627.0000	0.0018
626.0000	0.00229
625.0000	0.00275
624.0000	0.00319
623.0000	0.00386
622.0000	0.00429
621.0000	0.0048
620.0000	0.00532
619.0000	0.00583
618.0000	0.00633
617.0000	0.00689
616.0000	0.00741
615.0000	0.00785
614.0000	0.00844
613.0000	0.00905
612.0000	0.00958
611.0000	0.01016
610.0000	0.01078
609.0000	0.01133
608.0000	0.01189
607.0000	0.01243
606.0000	0.01302
605.0000	0.01362
604.0000	0.0143
603.0000	0.01481
602.0000	0.01535
601.0000	0.01611
600.0000	0.01678
599.0000	0.01739
598.0000	0.01805
597.0000	0.01867
596.0000	0.01934
595.0000	0.02001
594.0000	0.02067
593.0000	0.02123
592.0000	0.02195
591.0000	0.02263
590.0000	0.02327
589.0000	0.02388
588.0000	0.02441
587.0000	0.02502
586.0000	0.02571
585.0000	0.02638
584.0000	0.0271
583.0000	0.02777
582.0000	0.02841
581.0000	0.029
580.0000	0.02944
579.0000	0.03004
578.0000	0.03062
577.0000	0.03118
576.0000	0.03182
575.0000	0.03234
574.0000	0.03284
573.0000	0.03336
572.0000	0.03398
571.0000	0.03439
570.0000	0.03487
569.0000	0.03532
568.0000	0.03571
567.0000	0.03622
566.0000	0.03679
565.0000	0.03717
564.0000	0.03752
563.0000	0.03786
562.0000	0.03812
561.0000	0.03845
560.0000	0.03862
559.0000	0.03894
558.0000	0.0391
557.0000	0.03937
556.0000	0.03957
555.0000	0.03973
554.0000	0.03978
553.0000	0.03977
552.0000	0.03988
551.0000	0.03999
550.0000	0.04
549.0000	0.04001
548.0000	0.03997
547.0000	0.03984
546.0000	0.03974
545.0000	0.03956
544.0000	0.03935
543.0000	0.03928
542.0000	0.03904
541.0000	0.03875
540.0000	0.03833
539.0000	0.0379
538.0000	0.0375
537.0000	0.03709
536.0000	0.03667
535.0000	0.03614
534.0000	0.03571
533.0000	0.03529
532.0000	0.03463
531.0000	0.03409
530.0000	0.03343
529.0000	0.03274
528.0000	0.03205
527.0000	0.0314
526.0000	0.03076
525.0000	0.03002
524.0000	0.0292
523.0000	0.0284
522.0000	0.02766
521.0000	0.02686
520.0000	0.02525
519.0000	0.0244
518.0000	0.02352
517.0000	0.02266
516.0000	0.02187
515.0000	0.02098
514.0000	0.01997
513.0000	0.01905
512.0000	0.01813
511.0000	0.01724
510.0000	0.01631
509.0000	0.0155
508.0000	0.01453
507.0000	0.01354
506.0000	0.01271
505.0000	0.01163
504.0000	0.01082
503.0000	0.01001
502.0000	0.00902
501.0000	0.00802
500.0000	0.00727
499.0000	0.00637
498.0000	0.00546
497.0000	0.00469
496.0000	0.00389
495.0000	0.0031
494.0000	0.00233
493.0000	0.00155
492.0000	0.00072
491.0000	-0.00013
490.0000	-0.00093
489.0000	-0.00148
488.0000	-0.0022
487.0000	-0.00301
486.0000	-0.00369
485.0000	-0.00426
484.0000	-0.00488
483.0000	-0.00559
482.0000	-0.00622
481.0000	-0.00675
480.0000	-0.00735
479.0000	-0.00786
478.0000	-0.00856
477.0000	-0.00895
476.0000	-0.00945
475.0000	-0.00987
474.0000	-0.0104
473.0000	-0.01089
472.0000	-0.01122
471.0000	-0.01155
470.0000	-0.01188
469.0000	-0.01223
468.0000	-0.01259
467.0000	-0.0129
466.0000	-0.0132
465.0000	-0.01356
464.0000	-0.01388
463.0000	-0.01421
462.0000	-0.01436
461.0000	-0.0146
460.0000	-0.01496
459.0000	-0.01508
458.0000	-0.01529
457.0000	-0.0155
456.0000	-0.01565
455.0000	-0.0159
454.0000	-0.01602
453.0000	-0.01611
452.0000	-0.0163
451.0000	-0.01646
450.0000	-0.01671
449.0000	-0.01678
448.0000	-0.01689
447.0000	-0.01716
446.0000	-0.01731
445.0000	-0.01752
444.0000	-0.01769
443.0000	-0.01784
442.0000	-0.01799
441.0000	-0.01823
440.0000	-0.01866
439.0000	-0.01901
438.0000	-0.01933
437.0000	-0.01949
436.0000	-0.01981
435.0000	-0.02023
434.0000	-0.0206
433.0000	-0.02106
432.0000	-0.02144
431.0000	-0.02185
430.0000	-0.0222
429.0000	-0.02252
428.0000	-0.0229
427.0000	-0.02312
426.0000	-0.02335
425.0000	-0.02338
424.0000	-0.02326
423.0000	-0.02364
422.0000	-0.02402
421.0000	-0.02436
420.0000	-0.02593
419.0000	-0.02612
418.0000	-0.02651
417.0000	-0.02679
416.0000	-0.02717
415.0000	-0.02753
414.0000	-0.02785
413.0000	-0.02836
412.0000	-0.02887
411.0000	-0.02934
410.0000	-0.02957
409.0000	-0.02965
408.0000	-0.03007
407.0000	-0.03029
406.0000	-0.03047
405.0000	-0.03071
404.0000	-0.03105
403.0000	-0.0312
402.0000	-0.03111
401.0000	-0.03095
400.0000	-0.03086
399.0000	-0.03086
398.0000	-0.03064
397.0000	-0.03031
396.0000	-0.03013
395.0000	-0.02995
394.0000	-0.02948
393.0000	-0.02894
392.0000	-0.02825
391.0000	-0.02763
390.0000	-0.02695
389.0000	-0.02603
388.0000	-0.02515
387.0000	-0.0243
386.0000	-0.02324
385.0000	-0.0219
384.0000	-0.02041
383.0000	-0.01892
382.0000	-0.01759
381.0000	-0.01609
380.0000	-0.01439
379.0000	-0.01258
378.0000	-0.01065
377.0000	-0.00887
376.0000	-0.00694
375.0000	-0.00486
374.0000	-0.00286
373.0000	-0.00065
372.0000	0.00155
371.0000	0.00374
370.0000	0.00401
369.0000	0.00625
368.0000	0.00948
367.0000	0.01199
366.0000	0.01452
365.0000	0.01722
364.0000	0.01924
363.0000	0.0216
362.0000	0.02445
361.0000	0.0266
360.0000	0.02872
359.0000	0.03076
358.0000	0.03283
357.0000	0.03458
356.0000	0.03608
355.0000	0.03776
354.0000	0.03908
353.0000	0.04004
352.0000	0.04121
351.0000	0.04211
350.0000	0.04254
349.0000	0.04299
348.0000	0.0429
347.0000	0.04211
346.0000	0.04203
345.0000	0.04132
344.0000	0.04082
343.0000	0.04006
342.0000	0.0387
341.0000	0.03713
340.0000	0.03229
339.0000	0.03089
338.0000	0.02897
337.0000	0.02674
336.0000	0.02461
335.0000	0.02256
334.0000	0.02031
333.0000	0.01785
332.0000	0.01531
331.0000	0.01275
330.0000	0.01035
329.0000	0.00751
328.0000	0.00507
327.0000	0.00255
326.0000	-0.0004
325.0000	-0.00282
324.0000	-0.00512
323.0000	-0.00712
322.0000	-0.00927
321.0000	-0.01202
320.0000	-0.01379
319.0000	-0.01614
318.0000	-0.01805
317.0000	-0.0189
316.0000	-0.02045
315.0000	-0.02218
314.0000	-0.02382
313.0000	-0.02577
312.0000	-0.02708
311.0000	-0.0283
310.0000	-0.02948
309.0000	-0.03062
308.0000	-0.0312
307.0000	-0.03203
306.0000	-0.03271
305.0000	-0.03308
304.0000	-0.03382
303.0000	-0.03455
302.0000	-0.03512
301.0000	-0.03526
300.0000	-0.03537
