TITLE	
DATA TYPE	
ORIGIN	JASCO
OWNER	
DATE	23/05/04
TIME	16:51:06
SPECTROMETER/DATA SYSTEM	JASCO Corp., V-550, Rev. 1.00
RESOLUTION	
DELTAX	-0.5
XUNITS	NANOMETERS
YUNITS	ABSORBANCE
FIRSTX	700.0000
LASTX	300.0000
NPOINTS	801
FIRSTY	-0.00995
MAXY	0.08472
MINY	-0.01126
XYDATA
700.0000	-0.00995
699.5000	-0.01032
699.0000	-0.01079
698.5000	-0.01074
698.0000	-0.01087
697.5000	-0.01108
697.0000	-0.01126
696.5000	-0.01109
696.0000	-0.01058
695.5000	-0.01018
695.0000	-0.01013
694.5000	-0.01034
694.0000	-0.01076
693.5000	-0.01089
693.0000	-0.0107
692.5000	-0.01049
692.0000	-0.01007
691.5000	-0.00988
691.0000	-0.00951
690.5000	-0.00928
690.0000	-0.00873
689.5000	-0.0084
689.0000	-0.00793
688.5000	-0.00762
688.0000	-0.00727
687.5000	-0.00697
687.0000	-0.00666
686.5000	-0.00639
686.0000	-0.00612
685.5000	-0.00584
685.0000	-0.00547
684.5000	-0.00527
684.0000	-0.00497
683.5000	-0.00481
683.0000	-0.00453
682.5000	-0.00434
682.0000	-0.00402
681.5000	-0.00371
681.0000	-0.00338
680.5000	-0.00335
680.0000	-0.00377
679.5000	-0.00425
679.0000	-0.00465
678.5000	-0.00463
678.0000	-0.00444
677.5000	-0.00449
677.0000	-0.00444
676.5000	-0.00436
676.0000	-0.0041
675.5000	-0.00398
675.0000	-0.0038
674.5000	-0.00371
674.0000	-0.00359
673.5000	-0.00346
673.0000	-0.00331
672.5000	-0.00322
672.0000	-0.00302
671.5000	-0.00283
671.0000	-0.00262
670.5000	-0.00255
670.0000	-0.00231
669.5000	-0.00223
669.0000	-0.00213
668.5000	-0.00208
668.0000	-0.00205
667.5000	-0.00184
667.0000	-0.00167
666.5000	-0.0015
666.0000	-0.00134
665.5000	-0.00126
665.0000	-0.00099
664.5000	-0.00082
664.0000	-0.00049
663.5000	-0.00038
663.0000	-0.00015
662.5000	-5E-005
662.0000	0.00021
661.5000	0.0003
661.0000	0.00055
660.5000	0.00076
660.0000	0.00103
659.5000	0.00124
659.0000	0.00145
658.5000	0.00164
658.0000	0.00201
657.5000	0.00229
657.0000	0.00274
656.5000	0.00297
656.0000	0.00331
655.5000	0.00349
655.0000	0.0039
654.5000	0.00413
654.0000	0.00464
653.5000	0.00496
653.0000	0.00532
652.5000	0.0055
652.0000	0.00569
651.5000	0.00588
651.0000	0.00593
650.5000	0.00595
650.0000	0.00589
649.5000	0.00592
649.0000	0.00603
648.5000	0.00607
648.0000	0.00621
647.5000	0.0062
647.0000	0.00639
646.5000	0.00652
646.0000	0.00676
645.5000	0.00686
645.0000	0.00702
644.5000	0.00723
644.0000	0.00759
643.5000	0.00776
643.0000	0.00798
642.5000	0.00809
642.0000	0.00829
641.5000	0.00843
641.0000	0.00867
640.5000	0.00876
640.0000	0.00909
639.5000	0.00928
639.0000	0.0096
638.5000	0.00975
638.0000	0.00984
637.5000	0.00993
637.0000	0.01012
636.5000	0.01024
636.0000	0.01054
635.5000	0.01072
635.0000	0.01109
634.5000	0.01138
634.0000	0.01175
633.5000	0.01205
633.0000	0.01242
632.5000	0.0126
632.0000	0.01296
631.5000	0.01312
631.0000	0.01343
630.5000	0.01362
630.0000	0.014
629.5000	0.01419
629.0000	0.01458
628.5000	0.0148
628.0000	0.01525
627.5000	0.01553
627.0000	0.01592
626.5000	0.01614
626.0000	0.01637
625.5000	0.01651
625.0000	0.01676
624.5000	0.01699
624.0000	0.01726
623.5000	0.0174
623.0000	0.01751
622.5000	0.01772
622.0000	0.01795
621.5000	0.01815
621.0000	0.0185
620.5000	0.01884
620.0000	0.01925
619.5000	0.01942
619.0000	0.01973
618.5000	0.01996
618.0000	0.0204
617.5000	0.02066
617.0000	0.02104
616.5000	0.02125
616.0000	0.02167
615.5000	0.0219
615.0000	0.02228
614.5000	0.02251
614.0000	0.0229
613.5000	0.02317
613.0000	0.02362
612.5000	0.02397
612.0000	0.02445
611.5000	0.02478
611.0000	0.02506
610.5000	0.02528
610.0000	0.02561
609.5000	0.02577
609.0000	0.02613
608.5000	0.02631
608.0000	0.0267
607.5000	0.02694
607.0000	0.02727
606.5000	0.02754
606.0000	0.02792
605.5000	0.02823
605.0000	0.0286
604.5000	0.02889
604.0000	0.02918
603.5000	0.02946
603.0000	0.02975
602.5000	0.02998
602.0000	0.03026
601.5000	0.0305
601.0000	0.03077
600.5000	0.03097
600.0000	0.03125
599.5000	0.03141
599.0000	0.03174
598.5000	0.032
598.0000	0.03246
597.5000	0.03271
597.0000	0.03303
596.5000	0.03322
596.0000	0.03359
595.5000	0.03388
595.0000	0.03417
594.5000	0.03436
594.0000	0.03468
593.5000	0.03488
593.0000	0.03514
592.5000	0.03527
592.0000	0.03554
591.5000	0.03569
591.0000	0.03605
590.5000	0.0363
590.0000	0.03664
589.5000	0.0368
589.0000	0.03704
588.5000	0.03725
588.0000	0.03768
587.5000	0.03789
587.0000	0.03812
586.5000	0.03818
586.0000	0.03833
585.5000	0.03847
585.0000	0.03869
584.5000	0.03888
584.0000	0.03908
583.5000	0.03913
583.0000	0.03931
582.5000	0.03947
582.0000	0.03972
581.5000	0.03987
581.0000	0.04003
580.5000	0.04019
580.0000	0.04036
579.5000	0.04048
579.0000	0.04058
578.5000	0.04067
578.0000	0.04082
577.5000	0.04096
577.0000	0.04109
576.5000	0.04114
576.0000	0.0412
575.5000	0.04125
575.0000	0.04131
574.5000	0.04133
574.0000	0.04136
573.5000	0.04136
573.0000	0.04151
572.5000	0.04154
572.0000	0.0416
571.5000	0.04163
571.0000	0.04161
570.5000	0.04167
570.0000	0.04165
569.5000	0.04172
569.0000	0.04169
568.5000	0.04172
568.0000	0.0417
567.5000	0.04171
567.0000	0.04173
566.5000	0.04172
566.0000	0.04169
565.5000	0.04161
565.0000	0.04156
564.5000	0.04147
564.0000	0.0415
563.5000	0.04148
563.0000	0.0414
562.5000	0.04136
562.0000	0.04123
561.5000	0.04119
561.0000	0.04109
560.5000	0.04103
560.0000	0.04087
559.5000	0.04079
559.0000	0.04058
558.5000	0.04051
558.0000	0.04043
557.5000	0.04034
557.0000	0.04025
556.5000	0.04007
556.0000	0.03991
555.5000	0.03977
555.0000	0.03952
554.5000	0.03928
554.0000	0.03892
553.5000	0.03872
553.0000	0.03846
552.5000	0.03824
552.0000	0.03797
551.5000	0.03779
551.0000	0.03747
550.5000	0.03731
550.0000	0.03708
549.5000	0.0369
549.0000	0.03661
548.5000	0.03638
548.0000	0.03609
547.5000	0.03587
547.0000	0.03546
546.5000	0.03521
546.0000	0.03477
545.5000	0.0346
545.0000	0.03428
544.5000	0.034
544.0000	0.03368
543.5000	0.03343
543.0000	0.03312
542.5000	0.03282
542.0000	0.0324
541.5000	0.03205
541.0000	0.03167
540.5000	0.03141
540.0000	0.03105
539.5000	0.03075
539.0000	0.03024
538.5000	0.02987
538.0000	0.02933
537.5000	0.02904
537.0000	0.02864
536.5000	0.0284
536.0000	0.02801
535.5000	0.02773
535.0000	0.02719
534.5000	0.02687
534.0000	0.0264
533.5000	0.02609
533.0000	0.02574
532.5000	0.02555
532.0000	0.02526
531.5000	0.02499
531.0000	0.02449
530.5000	0.02412
530.0000	0.02368
529.5000	0.0234
529.0000	0.02298
528.5000	0.02257
528.0000	0.02198
527.5000	0.02164
527.0000	0.02119
526.5000	0.02091
526.0000	0.02063
525.5000	0.02044
525.0000	0.02019
524.5000	0.01996
524.0000	0.01945
523.5000	0.01904
523.0000	0.01843
522.5000	0.01809
522.0000	0.01768
521.5000	0.01735
521.0000	0.01679
520.5000	0.01651
520.0000	0.01779
519.5000	0.01774
519.0000	0.01751
518.5000	0.01734
518.0000	0.017
517.5000	0.01667
517.0000	0.01619
516.5000	0.01589
516.0000	0.01558
515.5000	0.01543
515.0000	0.01519
514.5000	0.01501
514.0000	0.01475
513.5000	0.01459
513.0000	0.01431
512.5000	0.01412
512.0000	0.01381
511.5000	0.01361
511.0000	0.01321
510.5000	0.01296
510.0000	0.01259
509.5000	0.01243
509.0000	0.01229
508.5000	0.01219
508.0000	0.01197
507.5000	0.01178
507.0000	0.01156
506.5000	0.01137
506.0000	0.01109
505.5000	0.01084
505.0000	0.01063
504.5000	0.01049
504.0000	0.01028
503.5000	0.01008
503.0000	0.00991
502.5000	0.00984
502.0000	0.00968
501.5000	0.00951
501.0000	0.00923
500.5000	0.0091
500.0000	0.00925
499.5000	0.00952
499.0000	0.01009
498.5000	0.01036
498.0000	0.01063
497.5000	0.01074
497.0000	0.01078
496.5000	0.01077
496.0000	0.01067
495.5000	0.01061
495.0000	0.01056
494.5000	0.01049
494.0000	0.01027
493.5000	0.01004
493.0000	0.0097
492.5000	0.0094
492.0000	0.00897
491.5000	0.00871
491.0000	0.00853
490.5000	0.00853
490.0000	0.00843
489.5000	0.00835
489.0000	0.00809
488.5000	0.00784
488.0000	0.00748
487.5000	0.0074
487.0000	0.00719
486.5000	0.00698
486.0000	0.00668
485.5000	0.00644
485.0000	0.00593
484.5000	0.00559
484.0000	0.00512
483.5000	0.00488
483.0000	0.00451
482.5000	0.00425
482.0000	0.00403
481.5000	0.00388
481.0000	0.00372
480.5000	0.00358
480.0000	0.00342
479.5000	0.00318
479.0000	0.00277
478.5000	0.00251
478.0000	0.00229
477.5000	0.00216
477.0000	0.002
476.5000	0.00182
476.0000	0.00172
475.5000	0.00162
475.0000	0.00169
474.5000	0.00166
474.0000	0.00172
473.5000	0.00168
473.0000	0.0015
472.5000	0.00137
472.0000	0.0013
471.5000	0.00135
471.0000	0.00129
470.5000	0.00123
470.0000	0.00111
469.5000	0.00102
469.0000	0.00096
468.5000	0.00099
468.0000	0.00109
467.5000	0.00112
467.0000	0.00107
466.5000	0.00106
466.0000	0.00102
465.5000	0.00099
465.0000	0.0009
464.5000	0.00079
464.0000	0.00078
463.5000	0.00077
463.0000	0.00076
462.5000	0.00067
462.0000	0.00062
461.5000	0.00064
461.0000	0.00076
460.5000	0.00074
460.0000	0.00071
459.5000	0.00065
459.0000	0.00068
458.5000	0.00064
458.0000	0.00065
457.5000	0.00058
457.0000	0.00055
456.5000	0.00055
456.0000	0.00058
455.5000	0.00064
455.0000	0.00074
454.5000	0.00088
454.0000	0.00118
453.5000	0.00132
453.0000	0.00148
452.5000	0.00149
452.0000	0.00168
451.5000	0.0018
451.0000	0.00191
450.5000	0.00187
450.0000	0.00189
449.5000	0.00194
449.0000	0.002
448.5000	0.002
448.0000	0.00209
447.5000	0.00216
447.0000	0.00234
446.5000	0.00243
446.0000	0.0026
445.5000	0.00272
445.0000	0.00291
444.5000	0.00307
444.0000	0.00334
443.5000	0.00345
443.0000	0.00351
442.5000	0.00342
442.0000	0.00343
441.5000	0.00351
441.0000	0.0036
440.5000	0.00368
440.0000	0.00378
439.5000	0.00382
439.0000	0.0038
438.5000	0.00372
438.0000	0.00363
437.5000	0.00365
437.0000	0.00349
436.5000	0.00351
436.0000	0.00339
435.5000	0.00333
435.0000	0.00325
434.5000	0.00316
434.0000	0.00311
433.5000	0.00302
433.0000	0.00293
432.5000	0.00282
432.0000	0.00272
431.5000	0.00262
431.0000	0.00259
430.5000	0.00263
430.0000	0.00265
429.5000	0.00256
429.0000	0.0025
428.5000	0.00247
428.0000	0.00256
427.5000	0.00263
427.0000	0.0028
426.5000	0.00305
426.0000	0.00335
425.5000	0.00366
425.0000	0.00395
424.5000	0.0042
424.0000	0.00445
423.5000	0.00454
423.0000	0.0046
422.5000	0.00471
422.0000	0.00495
421.5000	0.00497
421.0000	0.00505
420.5000	0.00506
420.0000	0.00615
419.5000	0.0063
419.0000	0.00644
418.5000	0.00656
418.0000	0.00669
417.5000	0.00683
417.0000	0.00688
416.5000	0.00697
416.0000	0.007
415.5000	0.00716
415.0000	0.00714
414.5000	0.00728
414.0000	0.00741
413.5000	0.00747
413.0000	0.00742
412.5000	0.00743
412.0000	0.00735
411.5000	0.0074
411.0000	0.00758
410.5000	0.00766
410.0000	0.00778
409.5000	0.00776
409.0000	0.00785
408.5000	0.00791
408.0000	0.00798
407.5000	0.00807
407.0000	0.00812
406.5000	0.0082
406.0000	0.00839
405.5000	0.00858
405.0000	0.00888
404.5000	0.00913
404.0000	0.00934
403.5000	0.00945
403.0000	0.00952
402.5000	0.00966
402.0000	0.00982
401.5000	0.00994
401.0000	0.01021
400.5000	0.01047
400.0000	0.01073
399.5000	0.0109
399.0000	0.01124
398.5000	0.01159
398.0000	0.01204
397.5000	0.01226
397.0000	0.01253
396.5000	0.01262
396.0000	0.01301
395.5000	0.0133
395.0000	0.01404
394.5000	0.01431
394.0000	0.01484
393.5000	0.01521
393.0000	0.01581
392.5000	0.01627
392.0000	0.01683
391.5000	0.0172
391.0000	0.01784
390.5000	0.01846
390.0000	0.01919
389.5000	0.0197
389.0000	0.0204
388.5000	0.02101
388.0000	0.02193
387.5000	0.02254
387.0000	0.02347
386.5000	0.02411
386.0000	0.0252
385.5000	0.02577
385.0000	0.02674
384.5000	0.02735
384.0000	0.02853
383.5000	0.0293
383.0000	0.03041
382.5000	0.0311
382.0000	0.03237
381.5000	0.03311
381.0000	0.03442
380.5000	0.03524
380.0000	0.03661
379.5000	0.03757
379.0000	0.03875
378.5000	0.03959
378.0000	0.04077
377.5000	0.04169
377.0000	0.04299
376.5000	0.04397
376.0000	0.04541
375.5000	0.0464
375.0000	0.04789
374.5000	0.04893
374.0000	0.05043
373.5000	0.05144
373.0000	0.05291
372.5000	0.05389
372.0000	0.05535
371.5000	0.05618
371.0000	0.05764
370.5000	0.05859
370.0000	0.06123
369.5000	0.06202
369.0000	0.06368
368.5000	0.06458
368.0000	0.06599
367.5000	0.067
367.0000	0.06833
366.5000	0.0693
366.0000	0.07057
365.5000	0.07151
365.0000	0.07278
364.5000	0.07368
364.0000	0.0748
363.5000	0.07565
363.0000	0.07656
362.5000	0.07715
362.0000	0.07796
361.5000	0.07858
361.0000	0.07962
360.5000	0.08028
360.0000	0.08102
359.5000	0.08135
359.0000	0.08213
358.5000	0.08256
358.0000	0.08331
357.5000	0.08357
357.0000	0.08392
356.5000	0.08408
356.0000	0.0841
355.5000	0.08431
355.0000	0.08454
354.5000	0.08472
354.0000	0.08451
353.5000	0.08468
353.0000	0.08459
352.5000	0.08464
352.0000	0.0842
351.5000	0.08387
351.0000	0.08367
350.5000	0.0835
350.0000	0.08297
349.5000	0.0827
349.0000	0.08197
348.5000	0.08159
348.0000	0.08087
347.5000	0.0804
347.0000	0.08
346.5000	0.07944
346.0000	0.07843
345.5000	0.07796
345.0000	0.07694
344.5000	0.07622
344.0000	0.07495
343.5000	0.07419
343.0000	0.07334
342.5000	0.07287
342.0000	0.07212
341.5000	0.07146
341.0000	0.07014
340.5000	0.06922
340.0000	0.06768
339.5000	0.06664
339.0000	0.06612
338.5000	0.06553
338.0000	0.06466
337.5000	0.06383
337.0000	0.06219
336.5000	0.06091
336.0000	0.05986
335.5000	0.05964
335.0000	0.05888
334.5000	0.05809
334.0000	0.0567
333.5000	0.05617
333.0000	0.05489
332.5000	0.05426
332.0000	0.05349
331.5000	0.05297
331.0000	0.05155
330.5000	0.0507
330.0000	0.04994
329.5000	0.04977
329.0000	0.04885
328.5000	0.04824
328.0000	0.04725
327.5000	0.04673
327.0000	0.04576
326.5000	0.04528
326.0000	0.04439
325.5000	0.04392
325.0000	0.04338
324.5000	0.04297
324.0000	0.04223
323.5000	0.04187
323.0000	0.04104
322.5000	0.04043
322.0000	0.03986
321.5000	0.03956
321.0000	0.03903
320.5000	0.03858
320.0000	0.03803
319.5000	0.03783
319.0000	0.03731
318.5000	0.03712
318.0000	0.03683
317.5000	0.03674
317.0000	0.03645
316.5000	0.03613
316.0000	0.03551
315.5000	0.03516
315.0000	0.03497
314.5000	0.03496
314.0000	0.03478
313.5000	0.03448
313.0000	0.0342
312.5000	0.03396
312.0000	0.03377
311.5000	0.03348
311.0000	0.03346
310.5000	0.03352
310.0000	0.03354
309.5000	0.03333
309.0000	0.03314
308.5000	0.033
308.0000	0.03324
307.5000	0.03324
307.0000	0.03315
306.5000	0.0329
306.0000	0.03243
305.5000	0.03222
305.0000	0.03204
304.5000	0.03204
304.0000	0.03223
303.5000	0.03218
303.0000	0.03232
302.5000	0.03224
302.0000	0.03224
301.5000	0.0322
301.0000	0.03207
300.5000	0.03186
300.0000	0.03178
