TITLE	
DATA TYPE	
ORIGIN	JASCO
OWNER	
DATE	23/05/04
TIME	10:11:49
SPECTROMETER/DATA SYSTEM	JASCO Corp., V-550, Rev. 1.00
RESOLUTION	
DELTAX	-0.5
XUNITS	NANOMETERS
YUNITS	ABSORBANCE
FIRSTX	700.0000
LASTX	300.0000
NPOINTS	801
FIRSTY	0.03023
MAXY	0.12509
MINY	-0.05243
XYDATA
700.0000	0.03023
699.5000	0.03002
699.0000	0.02946
698.5000	0.02954
698.0000	0.02947
697.5000	0.02953
697.0000	0.02962
696.5000	0.0296
696.0000	0.02967
695.5000	0.02962
695.0000	0.02968
694.5000	0.02968
694.0000	0.02979
693.5000	0.02973
693.0000	0.02978
692.5000	0.0297
692.0000	0.0297
691.5000	0.02962
691.0000	0.0298
690.5000	0.02988
690.0000	0.03014
689.5000	0.0301
689.0000	0.0302
688.5000	0.03016
688.0000	0.03031
687.5000	0.0303
687.0000	0.03037
686.5000	0.03037
686.0000	0.03045
685.5000	0.03041
685.0000	0.03044
684.5000	0.03052
684.0000	0.03068
683.5000	0.0307
683.0000	0.03074
682.5000	0.03066
682.0000	0.0307
681.5000	0.03056
681.0000	0.03061
680.5000	0.03066
680.0000	0.03031
679.5000	0.03025
679.0000	0.03013
678.5000	0.03012
678.0000	0.03014
677.5000	0.03022
677.0000	0.03019
676.5000	0.03023
676.0000	0.03019
675.5000	0.03024
675.0000	0.03045
674.5000	0.03045
674.0000	0.03061
673.5000	0.03066
673.0000	0.03072
672.5000	0.03071
672.0000	0.0308
671.5000	0.03081
671.0000	0.03091
670.5000	0.0309
670.0000	0.03093
669.5000	0.03094
669.0000	0.031
668.5000	0.03105
668.0000	0.03118
667.5000	0.03122
667.0000	0.03146
666.5000	0.03153
666.0000	0.03181
665.5000	0.03191
665.0000	0.03217
664.5000	0.03222
664.0000	0.03234
663.5000	0.03241
663.0000	0.03248
662.5000	0.03262
662.0000	0.03285
661.5000	0.03306
661.0000	0.03325
660.5000	0.03338
660.0000	0.03351
659.5000	0.03363
659.0000	0.03384
658.5000	0.03413
658.0000	0.03451
657.5000	0.03474
657.0000	0.03516
656.5000	0.03532
656.0000	0.0356
655.5000	0.0359
655.0000	0.0363
654.5000	0.03651
654.0000	0.03671
653.5000	0.03683
653.0000	0.03714
652.5000	0.03738
652.0000	0.03777
651.5000	0.03783
651.0000	0.03784
650.5000	0.03784
650.0000	0.03783
649.5000	0.03783
649.0000	0.03773
648.5000	0.03774
648.0000	0.03783
647.5000	0.03787
647.0000	0.03796
646.5000	0.03811
646.0000	0.03828
645.5000	0.03841
645.0000	0.03878
644.5000	0.03896
644.0000	0.03924
643.5000	0.03946
643.0000	0.03978
642.5000	0.03987
642.0000	0.03993
641.5000	0.04003
641.0000	0.04026
640.5000	0.04042
640.0000	0.04066
639.5000	0.04078
639.0000	0.04112
638.5000	0.04121
638.0000	0.04138
637.5000	0.04157
637.0000	0.04192
636.5000	0.0421
636.0000	0.04233
635.5000	0.04238
635.0000	0.04259
634.5000	0.04284
634.0000	0.04304
633.5000	0.04323
633.0000	0.04335
632.5000	0.04362
632.0000	0.04382
631.5000	0.04397
631.0000	0.04429
630.5000	0.04455
630.0000	0.04488
629.5000	0.04506
629.0000	0.04523
628.5000	0.04537
628.0000	0.04572
627.5000	0.0459
627.0000	0.04616
626.5000	0.04625
626.0000	0.04648
625.5000	0.04658
625.0000	0.04684
624.5000	0.04691
624.0000	0.04713
623.5000	0.04721
623.0000	0.04744
622.5000	0.04759
622.0000	0.04777
621.5000	0.048
621.0000	0.04825
620.5000	0.04852
620.0000	0.04881
619.5000	0.04902
619.0000	0.04939
618.5000	0.04965
618.0000	0.05001
617.5000	0.05011
617.0000	0.05033
616.5000	0.05061
616.0000	0.05098
615.5000	0.05114
615.0000	0.05138
614.5000	0.05153
614.0000	0.05184
613.5000	0.05206
613.0000	0.05246
612.5000	0.05277
612.0000	0.05333
611.5000	0.05355
611.0000	0.05386
610.5000	0.05411
610.0000	0.0544
609.5000	0.05464
609.0000	0.05493
608.5000	0.05507
608.0000	0.0554
607.5000	0.05558
607.0000	0.05585
606.5000	0.05605
606.0000	0.05633
605.5000	0.05657
605.0000	0.05694
604.5000	0.05725
604.0000	0.05766
603.5000	0.05782
603.0000	0.05808
602.5000	0.05828
602.0000	0.05867
601.5000	0.05888
601.0000	0.05928
600.5000	0.05948
600.0000	0.05982
599.5000	0.06009
599.0000	0.0605
598.5000	0.0608
598.0000	0.06113
597.5000	0.0613
597.0000	0.06163
596.5000	0.06184
596.0000	0.06223
595.5000	0.06241
595.0000	0.06281
594.5000	0.06301
594.0000	0.06335
593.5000	0.06357
593.0000	0.06396
592.5000	0.06413
592.0000	0.06441
591.5000	0.06457
591.0000	0.06471
590.5000	0.06487
590.0000	0.06509
589.5000	0.06536
589.0000	0.0657
588.5000	0.06584
588.0000	0.06605
587.5000	0.06618
587.0000	0.06633
586.5000	0.06645
586.0000	0.0665
585.5000	0.0665
585.0000	0.06664
584.5000	0.06685
584.0000	0.06702
583.5000	0.06714
583.0000	0.06731
582.5000	0.06744
582.0000	0.06764
581.5000	0.06782
581.0000	0.0681
580.5000	0.06825
580.0000	0.06848
579.5000	0.06856
579.0000	0.06871
578.5000	0.06887
578.0000	0.06909
577.5000	0.06919
577.0000	0.06933
576.5000	0.06946
576.0000	0.06969
575.5000	0.06979
575.0000	0.06993
574.5000	0.06995
574.0000	0.07004
573.5000	0.07009
573.0000	0.07008
572.5000	0.07009
572.0000	0.07025
571.5000	0.07027
571.0000	0.0703
570.5000	0.07019
570.0000	0.07011
569.5000	0.07009
569.0000	0.07008
568.5000	0.07003
568.0000	0.07004
567.5000	0.07013
567.0000	0.07019
566.5000	0.07012
566.0000	0.07001
565.5000	0.06993
565.0000	0.06981
564.5000	0.06985
564.0000	0.06986
563.5000	0.0698
563.0000	0.0697
562.5000	0.06973
562.0000	0.06968
561.5000	0.06962
561.0000	0.0695
560.5000	0.06956
560.0000	0.06959
559.5000	0.06961
559.0000	0.06959
558.5000	0.06954
558.0000	0.06936
557.5000	0.06937
557.0000	0.06925
556.5000	0.0692
556.0000	0.06902
555.5000	0.0689
555.0000	0.06866
554.5000	0.06852
554.0000	0.06822
553.5000	0.06798
553.0000	0.06765
552.5000	0.06743
552.0000	0.06713
551.5000	0.06688
551.0000	0.06656
550.5000	0.06634
550.0000	0.0661
549.5000	0.06592
549.0000	0.06564
548.5000	0.06545
548.0000	0.06509
547.5000	0.06486
547.0000	0.06442
546.5000	0.06417
546.0000	0.06379
545.5000	0.0635
545.0000	0.06302
544.5000	0.06281
544.0000	0.06244
543.5000	0.06223
543.0000	0.06189
542.5000	0.06165
542.0000	0.06127
541.5000	0.061
541.0000	0.06055
540.5000	0.06032
540.0000	0.05994
539.5000	0.05962
539.0000	0.0592
538.5000	0.05889
538.0000	0.05854
537.5000	0.05826
537.0000	0.05781
536.5000	0.05747
536.0000	0.05699
535.5000	0.05673
535.0000	0.05627
534.5000	0.05602
534.0000	0.05567
533.5000	0.05553
533.0000	0.05523
532.5000	0.05501
532.0000	0.05462
531.5000	0.05433
531.0000	0.05385
530.5000	0.05344
530.0000	0.05284
529.5000	0.05252
529.0000	0.05214
528.5000	0.0519
528.0000	0.05159
527.5000	0.05134
527.0000	0.05099
526.5000	0.05072
526.0000	0.05033
525.5000	0.05007
525.0000	0.0497
524.5000	0.04936
524.0000	0.04894
523.5000	0.04861
523.0000	0.04809
522.5000	0.04784
522.0000	0.04735
521.5000	0.04714
521.0000	0.0468
520.5000	0.04662
520.0000	0.04653
519.5000	0.04617
519.0000	0.04584
518.5000	0.04555
518.0000	0.04517
517.5000	0.04491
517.0000	0.0445
516.5000	0.04424
516.0000	0.04372
515.5000	0.04347
515.0000	0.04298
514.5000	0.0428
514.0000	0.0425
513.5000	0.0423
513.0000	0.04205
512.5000	0.04176
512.0000	0.04147
511.5000	0.04131
511.0000	0.04116
510.5000	0.04108
510.0000	0.04085
509.5000	0.04063
509.0000	0.04028
508.5000	0.04011
508.0000	0.03976
507.5000	0.03945
507.0000	0.03907
506.5000	0.03884
506.0000	0.03859
505.5000	0.03837
505.0000	0.03811
504.5000	0.03772
504.0000	0.03734
503.5000	0.03728
503.0000	0.03722
502.5000	0.03717
502.0000	0.03701
501.5000	0.03678
501.0000	0.03648
500.5000	0.03639
500.0000	0.03628
499.5000	0.03619
499.0000	0.03593
498.5000	0.03582
498.0000	0.03571
497.5000	0.03562
497.0000	0.03546
496.5000	0.0354
496.0000	0.03533
495.5000	0.03533
495.0000	0.03514
494.5000	0.03499
494.0000	0.03464
493.5000	0.03457
493.0000	0.03439
492.5000	0.03442
492.0000	0.03433
491.5000	0.03422
491.0000	0.03413
490.5000	0.03404
490.0000	0.03395
489.5000	0.0339
489.0000	0.03377
488.5000	0.03371
488.0000	0.03344
487.5000	0.03344
487.0000	0.03336
486.5000	0.03349
486.0000	0.03345
485.5000	0.03343
485.0000	0.03322
484.5000	0.03318
484.0000	0.03309
483.5000	0.033
483.0000	0.03281
482.5000	0.03273
482.0000	0.03256
481.5000	0.03246
481.0000	0.03236
480.5000	0.03232
480.0000	0.03219
479.5000	0.03218
479.0000	0.03215
478.5000	0.0322
478.0000	0.03234
477.5000	0.03233
477.0000	0.03228
476.5000	0.03221
476.0000	0.03215
475.5000	0.03208
475.0000	0.0319
474.5000	0.03181
474.0000	0.0317
473.5000	0.03172
473.0000	0.03173
472.5000	0.03167
472.0000	0.03171
471.5000	0.03178
471.0000	0.03186
470.5000	0.03184
470.0000	0.03181
469.5000	0.03179
469.0000	0.0318
468.5000	0.03187
468.0000	0.0319
467.5000	0.03189
467.0000	0.03188
466.5000	0.03194
466.0000	0.03194
465.5000	0.0319
465.0000	0.03184
464.5000	0.03187
464.0000	0.03195
463.5000	0.03204
463.0000	0.03212
462.5000	0.03205
462.0000	0.03212
461.5000	0.03223
461.0000	0.0323
460.5000	0.0323
460.0000	0.03226
459.5000	0.03235
459.0000	0.03251
458.5000	0.03257
458.0000	0.03257
457.5000	0.03246
457.0000	0.0324
456.5000	0.03238
456.0000	0.03243
455.5000	0.03249
455.0000	0.03256
454.5000	0.03256
454.0000	0.03259
453.5000	0.03264
453.0000	0.03275
452.5000	0.03286
452.0000	0.03295
451.5000	0.03298
451.0000	0.03305
450.5000	0.03305
450.0000	0.03309
449.5000	0.0331
449.0000	0.03316
448.5000	0.0331
448.0000	0.03296
447.5000	0.03297
447.0000	0.03307
446.5000	0.03305
446.0000	0.03302
445.5000	0.03301
445.0000	0.03298
444.5000	0.033
444.0000	0.03291
443.5000	0.03282
443.0000	0.03271
442.5000	0.03267
442.0000	0.03275
441.5000	0.03278
441.0000	0.03287
440.5000	0.03299
440.0000	0.03315
439.5000	0.0333
439.0000	0.03355
438.5000	0.03361
438.0000	0.03363
437.5000	0.03358
437.0000	0.03343
436.5000	0.03348
436.0000	0.03362
435.5000	0.03377
435.0000	0.03398
434.5000	0.03413
434.0000	0.03435
433.5000	0.03451
433.0000	0.0346
432.5000	0.03473
432.0000	0.03473
431.5000	0.03482
431.0000	0.03485
430.5000	0.03485
430.0000	0.03483
429.5000	0.03485
429.0000	0.03498
428.5000	0.03514
428.0000	0.0354
427.5000	0.03544
427.0000	0.03547
426.5000	0.03541
426.0000	0.03552
425.5000	0.03549
425.0000	0.03569
424.5000	0.03564
424.0000	0.03577
423.5000	0.03585
423.0000	0.0359
422.5000	0.03589
422.0000	0.03609
421.5000	0.03622
421.0000	0.03627
420.5000	0.03626
420.0000	0.03701
419.5000	0.03698
419.0000	0.0371
418.5000	0.03719
418.0000	0.0372
417.5000	0.03724
417.0000	0.03736
416.5000	0.03759
416.0000	0.03769
415.5000	0.0377
415.0000	0.03786
414.5000	0.0381
414.0000	0.03834
413.5000	0.03845
413.0000	0.03845
412.5000	0.03855
412.0000	0.03889
411.5000	0.03914
411.0000	0.03942
410.5000	0.03943
410.0000	0.03939
409.5000	0.0394
409.0000	0.03955
408.5000	0.03975
408.0000	0.04018
407.5000	0.04034
407.0000	0.0405
406.5000	0.04046
406.0000	0.04065
405.5000	0.04081
405.0000	0.04121
404.5000	0.04147
404.0000	0.04189
403.5000	0.04217
403.0000	0.04242
402.5000	0.04261
402.0000	0.04281
401.5000	0.04299
401.0000	0.04326
400.5000	0.04345
400.0000	0.04393
399.5000	0.04437
399.0000	0.04487
398.5000	0.0453
398.0000	0.0462
397.5000	0.04669
397.0000	0.0471
396.5000	0.04718
396.0000	0.04759
395.5000	0.04803
395.0000	0.04853
394.5000	0.049
394.0000	0.04974
393.5000	0.05023
393.0000	0.05073
392.5000	0.05117
392.0000	0.05182
391.5000	0.05228
391.0000	0.05295
390.5000	0.05341
390.0000	0.05426
389.5000	0.05493
389.0000	0.05589
388.5000	0.05665
388.0000	0.05768
387.5000	0.05838
387.0000	0.05948
386.5000	0.06021
386.0000	0.06144
385.5000	0.06224
385.0000	0.06341
384.5000	0.0642
384.0000	0.06553
383.5000	0.06629
383.0000	0.06766
382.5000	0.06854
382.0000	0.06994
381.5000	0.07073
381.0000	0.07213
380.5000	0.0732
380.0000	0.07489
379.5000	0.07589
379.0000	0.07735
378.5000	0.0783
378.0000	0.0799
377.5000	0.08089
377.0000	0.08254
376.5000	0.08356
376.0000	0.0852
375.5000	0.08629
375.0000	0.08771
374.5000	0.08876
374.0000	0.09049
373.5000	0.09171
373.0000	0.09327
372.5000	0.09426
372.0000	0.09591
371.5000	0.09686
371.0000	0.09838
370.5000	0.09918
370.0000	0.10216
369.5000	0.10288
369.0000	0.10451
368.5000	0.10538
368.0000	0.10684
367.5000	0.10778
367.0000	0.10925
366.5000	0.11011
366.0000	0.11139
365.5000	0.11215
365.0000	0.11362
364.5000	0.1144
364.0000	0.11567
363.5000	0.11628
363.0000	0.11716
362.5000	0.11793
362.0000	0.11891
361.5000	0.11951
361.0000	0.12032
360.5000	0.12061
360.0000	0.12127
359.5000	0.12168
359.0000	0.12257
358.5000	0.12322
358.0000	0.12394
357.5000	0.12419
357.0000	0.12474
356.5000	0.12485
356.0000	0.12493
355.5000	0.12485
355.0000	0.12488
354.5000	0.12509
354.0000	0.12509
353.5000	0.12508
353.0000	0.1248
352.5000	0.12456
352.0000	0.12438
351.5000	0.12428
351.0000	0.12387
350.5000	0.12352
350.0000	0.12261
349.5000	0.1226
349.0000	0.12193
348.5000	0.12139
348.0000	0.12039
347.5000	0.11988
347.0000	0.11933
346.5000	0.11861
346.0000	0.11739
345.5000	0.11676
345.0000	0.11566
344.5000	0.11515
344.0000	0.11432
343.5000	0.11362
343.0000	0.11261
342.5000	0.11179
342.0000	0.10992
341.5000	0.10858
341.0000	0.10675
340.5000	0.10566
340.0000	0.10071
339.5000	0.09978
339.0000	0.09795
338.5000	0.09639
338.0000	0.09353
337.5000	0.09112
337.0000	0.08767
336.5000	0.08526
336.0000	0.08155
335.5000	0.07911
335.0000	0.07482
334.5000	0.0713
334.0000	0.06625
333.5000	0.06324
333.0000	0.05882
332.5000	0.05549
332.0000	0.05035
331.5000	0.04725
331.0000	0.04266
330.5000	0.04001
330.0000	0.03638
329.5000	0.03441
329.0000	0.0315
328.5000	0.03024
328.0000	0.02819
327.5000	0.02724
327.0000	0.02622
326.5000	0.02525
326.0000	0.02414
325.5000	0.02339
325.0000	0.02247
324.5000	0.02171
324.0000	0.02037
323.5000	0.01923
323.0000	0.01752
322.5000	0.0165
322.0000	0.01477
321.5000	0.01299
321.0000	0.01041
320.5000	0.00843
320.0000	0.00571
319.5000	0.00351
319.0000	7E-005
318.5000	-0.00224
318.0000	-0.00564
317.5000	-0.00807
317.0000	-0.01149
316.5000	-0.01354
316.0000	-0.01611
315.5000	-0.01768
315.0000	-0.01976
314.5000	-0.02089
314.0000	-0.02242
313.5000	-0.02334
313.0000	-0.02378
312.5000	-0.0237
312.0000	-0.02332
311.5000	-0.02319
311.0000	-0.02274
310.5000	-0.02214
310.0000	-0.0219
309.5000	-0.02168
309.0000	-0.0218
308.5000	-0.02164
308.0000	-0.02216
307.5000	-0.02192
307.0000	-0.02296
306.5000	-0.02373
306.0000	-0.0255
305.5000	-0.02643
305.0000	-0.02906
304.5000	-0.03036
304.0000	-0.03373
303.5000	-0.03589
303.0000	-0.03917
302.5000	-0.04108
302.0000	-0.04352
301.5000	-0.04536
301.0000	-0.04805
300.5000	-0.04963
300.0000	-0.05243
